timeline,accX,accY,accZ,gyroX,gyroY,gyroZ
17,0.8999,-2.2370,7.6416,4.6900,-5.5300,17.7100
37,0.9160,-2.2877,7.7045,6.7900,1.6800,20.0200
57,0.8994,-2.3419,7.6850,10.7800,-14.9800,16.7300
77,0.8896,-2.3268,7.6797,3.5700,-9.8700,11.8300
97,0.8750,-2.2668,7.5938,9.1000,-0.1400,14.0700
117,0.8867,-2.3024,7.7402,6.0900,4.0600,17.5000
137,0.8886,-2.3112,7.7280,7.2800,-6.2300,15.1200
157,0.8560,-2.3263,7.6089,-2.5200,-12.1100,9.2400
177,0.8506,-2.3331,7.4659,-11.2000,5.5300,7.0700
197,0.8535,-2.3492,7.7729,-36.4000,23.7300,-8.0500
217,0.7798,-2.2897,8.5156,-64.4000,23.3100,-0.4200
237,0.8520,-2.0003,8.7879,-152.5300,-54.2500,30.1700
257,0.9872,-2.3917,10.1938,-243.6700,-60.0600,95.3400
277,0.2274,-0.7183,9.8156,-7.4900,148.1900,194.8100
297,-2.4478,-1.0980,9.9215,356.3700,270.9700,59.1500
317,-0.8316,-5.3099,15.9888,708.4000,953.9600,575.2600
337,0.7984,-8.6903,15.9888,927.1500,497.4900,405.2300
357,1.2566,-8.5215,15.9888,1102.5699,-422.5200,167.0200
377,1.3288,-8.2980,14.0700,1208.2000,-1035.0900,-94.9900
397,1.8578,-6.3264,9.2374,1236.9700,-874.8600,-261.6600
417,2.0403,-4.2695,6.7798,1285.2700,-447.3700,-329.0700
437,2.0559,-3.5712,7.2863,1318.5200,-61.1800,-301.2100
457,1.8212,-3.1110,6.6739,1395.1000,214.1300,-286.5800
477,1.5079,-2.3805,7.7338,1431.5699,350.4200,-251.1600
497,1.1746,-2.1833,8.0691,1437.2400,217.4200,-322.0700
517,0.6490,-1.0604,7.2009,1441.9301,74.6900,-409.4300
537,0.1474,-0.3972,7.1350,1455.2300,-19.2500,-361.3400
557,-0.1459,0.0878,6.6231,1433.3199,-74.6900,-334.6700
577,0.0566,0.7105,6.0473,1383.7600,-178.4300,-335.6500
597,0.0273,1.5050,5.6457,1325.1700,-252.0700,-334.0400
617,-0.0107,2.7665,3.8645,1229.9000,-267.6800,-319.0600
637,0.2577,2.9607,3.6214,1219.9600,-148.1200,-214.4100
657,0.7027,2.8128,3.5697,1169.1400,-31.0100,-187.8800
677,0.6969,3.1095,3.9001,1161.3700,1.3300,-185.5000
697,0.5627,3.3760,4.0850,1116.7800,-37.8700,-189.7700
717,0.4704,3.4721,3.8498,1078.4900,-84.8400,-195.1600
737,0.5963,3.5580,3.4799,1055.1801,-95.7600,-195.7200
757,0.6520,3.5878,3.0944,1040.2700,-73.6400,-212.4500
777,0.7374,3.6400,3.0061,1038.5200,-62.3700,-250.7400
797,0.5963,4.0602,2.7182,1010.9400,-37.3800,-295.1200
817,0.4260,4.1919,2.4581,1006.5300,6.5800,-314.1600
837,0.2733,4.4271,2.4093,987.0000,35.2100,-336.3500
857,0.2128,4.3896,2.1004,977.9000,24.5700,-359.1700
877,-0.0029,4.5652,1.8310,962.6400,-12.7400,-430.4300
897,-0.5700,5.2196,0.9321,913.9900,-21.4900,-503.6500
917,-1.1258,5.7023,0.8389,879.4100,-23.2400,-517.5800
937,-1.5426,6.4870,0.1684,844.4800,-40.5300,-500.2900
957,-1.9066,6.5812,-0.3816,793.1700,-44.3100,-470.8200
977,-2.1994,7.1609,-0.6866,763.4900,-35.7700,-429.9400
997,-2.3224,7.5337,-1.3400,701.1200,-15.3300,-398.7200
1017,-2.4244,7.7514,-1.7919,623.9100,-5.9500,-363.5100
1037,-2.5225,8.1359,-2.3697,545.1600,-7.6300,-309.2600
1057,-2.7162,8.2179,-3.2964,416.7100,-29.2600,-284.9000
1077,-2.9002,8.6410,-3.7332,303.3800,13.1600,-240.0300
1097,-3.0417,8.7567,-3.8342,191.8700,72.3100,-172.5500
1117,-3.3765,8.6527,-3.7556,78.0500,102.9000,-138.5300
1137,-3.6839,8.7864,-3.8523,-45.8500,13.7200,-146.4400
1157,-4.1704,9.1007,-4.4242,-207.5500,-133.9800,-161.7700
1177,-4.6253,9.8474,-5.1323,-348.2500,-259.1400,-138.0400
1197,-4.8878,10.1392,-5.8985,-483.0700,-296.3800,-23.1700
1217,-4.7014,9.9040,-6.1981,-656.3200,-318.2200,87.7800
1237,-4.3334,9.0861,-6.1737,-811.8600,-381.5000,180.3200
1257,-3.9674,8.5873,-6.5724,-1018.5700,-349.0200,283.5700
1277,-3.2574,7.3673,-6.1752,-1169.3500,-337.1900,358.4000
1297,-2.6025,6.2332,-5.6486,-1329.0200,-287.0700,407.0500
1317,-2.0223,5.0332,-4.8449,-1505.0699,-212.4500,441.7700
1337,-1.3947,3.7947,-3.8064,-1638.3500,-214.6200,455.5600
1357,-0.5822,2.6777,-2.9129,-1768.5500,-222.1100,447.7900
1377,0.1132,1.6192,-2.0589,-1851.5699,-175.9100,418.8100
1397,0.6061,0.3377,-0.5246,-1918.2100,-77.0700,378.7700
1417,0.6666,-0.7754,1.5567,-1948.9399,45.6400,343.2800
1437,0.5202,-2.0291,4.2998,-1920.4500,245.1400,345.8000
1457,0.3089,-3.1998,8.2755,-1817.9700,332.2200,352.5200
1477,0.2562,-4.0636,11.2850,-1688.1899,87.5700,259.9100
1497,0.5236,-3.9967,12.6299,-1516.0601,-267.6100,122.9200
1517,0.7603,-3.2838,11.9409,-1280.9301,-553.9800,58.0300
1537,0.7701,-2.2970,10.6716,-1154.1600,-635.2500,57.4700
1557,0.7222,-1.6909,9.3096,-1107.5400,-571.1300,113.5400
1577,0.9213,-1.4762,9.0705,-1098.7200,-358.4700,209.6500
1597,1.2517,-1.3757,10.2924,-1118.1100,-145.9500,320.8800
1617,1.6480,-2.8036,11.7584,-1082.0601,-145.7400,335.7900
1637,1.8803,-3.2242,9.7912,-1074.7100,-70.4900,305.4100
1657,1.9022,-2.6484,8.9958,-1084.5800,-24.3600,190.0500
1677,1.4518,-2.7084,9.0729,-1073.0300,218.0500,188.8600
1697,0.8774,-3.3672,10.2177,-1004.3600,353.2900,153.0200
1717,0.1518,-2.9412,10.8907,-930.0200,278.3200,141.4700
1737,-0.0020,-2.5522,9.9454,-859.8100,110.0400,120.9600
1757,0.0029,-2.4171,8.6313,-830.4800,70.0700,137.2000
1777,-0.1742,-2.2819,8.3590,-823.2700,121.4500,159.4600
1797,-0.2406,-2.4698,8.0349,-802.7600,202.0900,234.1500
1817,-0.6764,-2.6376,8.1779,-814.0300,313.9500,280.8400
1837,-2.2292,-5.7203,15.9888,-797.5100,991.7600,-181.7200
1857,1.5416,-11.7340,15.9888,190.1900,-2.1700,289.6600
1877,0.3767,-0.8930,14.4331,-20.3000,-978.7400,129.2200
1897,1.6011,-2.5108,5.2338,228.7600,-333.0600,153.6500
1917,-1.1473,-4.2695,8.3058,170.5900,343.5600,-37.0300
1937,-2.1208,-6.1190,14.5180,409.2900,899.5000,22.5400
1957,-2.8870,-4.8068,15.9888,557.6900,570.5700,-24.4300
1977,-2.1916,-5.8126,15.9888,841.5400,240.5900,43.7500
1997,-2.1535,-7.0628,15.9888,1097.6000,133.4200,59.9200
2017,-1.8095,-6.2679,14.7288,1298.0800,123.0600,89.4600
2037,-1.0150,-5.9653,13.3819,1401.6100,-11.2000,67.2000
2057,-0.5207,-5.0850,11.5270,1506.7500,24.0100,88.6900
2077,-0.2767,-4.5516,10.3895,1559.6000,140.9100,98.7700
2097,-0.1010,-4.0992,9.9171,1590.5400,231.9100,112.9800
2117,0.3138,-3.4999,9.2642,1642.9700,181.3000,94.7100
2137,0.6432,-2.8255,7.6562,1680.2100,118.2300,62.3700
2157,0.8696,-2.3800,6.6104,1698.4100,159.1800,36.0500
2177,0.9565,-2.0237,6.4582,1710.2400,160.3000,2.6600
2197,1.1068,-1.4850,5.5451,1725.7100,92.8900,-45.9900
2217,1.2971,-0.8843,4.1451,1715.8400,74.2000,-112.6300
2237,0.8018,-0.0400,3.2252,1681.6801,136.0800,-155.1200
2257,0.1484,0.6808,2.8846,1641.9900,213.7800,-175.2100
2277,-0.3372,1.2210,2.3302,1613.5000,242.9700,-171.8500
2297,-0.5749,1.8076,1.4747,1581.5800,298.6900,-145.1800
2317,-1.0165,2.4873,1.3161,1540.0000,357.3500,-143.7800
2337,-1.5416,2.8553,1.3791,1497.2300,337.5400,-123.8300
2357,-1.6285,2.9929,1.4167,1466.6400,257.5300,-125.5800
2377,-1.7568,3.2945,0.6730,1454.8800,179.2700,-140.9800
2397,-1.8842,3.8830,-0.0298,1435.7700,160.9300,-159.4600
2417,-1.9256,4.0660,-0.5680,1398.9500,138.5300,-152.9500
2437,-1.8422,4.5018,-1.1766,1335.2500,126.2100,-181.6500
2457,-2.0208,4.6199,-1.7036,1245.9301,99.6100,-203.2100
2477,-1.6246,4.9161,-2.3224,1184.4700,110.2500,-244.1600
2497,-2.5059,5.4075,-2.7958,1134.0699,146.6500,-265.2300
2517,-3.1339,6.1717,-2.8572,1025.2900,150.6400,-246.0500
2537,-2.9265,5.8072,-2.9666,978.3900,172.3400,-250.4600
2557,-3.5004,6.3996,-3.0886,909.6500,189.7000,-234.5700
2577,-4.0689,6.6422,-2.8416,871.8500,106.9600,-228.6900
2597,-3.8957,6.5543,-3.5468,820.8200,20.0900,-221.9700
2617,-4.2602,7.1199,-4.2968,748.4400,-63.0700,-206.0100
2637,-4.1529,7.3073,-5.0840,658.3500,-86.2400,-162.8900
2657,-4.1007,7.4830,-5.5935,531.4400,-52.6400,-132.4400
2677,-4.1939,7.7582,-5.6706,417.4800,-60.1300,-96.8800
2697,-4.2959,8.0315,-5.9775,282.0300,-106.8200,-73.4300
2717,-4.3520,7.4981,-6.0644,169.5400,-163.4500,-48.2300
2737,-4.2641,8.2682,-6.3367,26.0400,-144.8300,-8.5400
2757,-4.5033,8.1252,-6.5065,-114.9400,-203.8400,-8.5400
2777,-4.3910,8.2897,-7.0496,-217.4200,-189.4900,78.2600
2797,-4.2568,7.8983,-6.8715,-367.2900,-165.0600,104.7200
2817,-4.0441,7.4264,-6.5055,-514.8500,-218.6800,97.8600
2837,-3.8562,7.1814,-6.8730,-658.9100,-267.8900,94.5700
2857,-3.7581,6.8242,-6.9540,-815.2900,-220.6400,95.2000
2877,-3.9338,6.4597,-6.5255,-960.4700,-169.8900,107.0300
2897,-4.2959,6.2049,-5.9312,-1119.3700,-140.8400,132.3000
2917,-4.3627,5.6837,-5.2343,-1267.4200,-159.5300,175.1400
2937,-4.0992,5.0030,-4.4188,-1352.6801,-186.9700,227.9900
2957,-3.6776,4.6189,-3.9064,-1455.6500,-240.9400,259.8400
2977,-2.9861,3.7371,-2.7411,-1544.4100,-340.9000,280.9800
2997,-2.4244,3.0036,-2.4883,-1596.9800,-426.5100,273.2100
3017,-1.6802,2.7684,-2.6537,-1700.3000,-406.4900,317.9400
3037,-1.1253,2.1921,-2.0374,-1766.5200,-398.5100,295.5400
3057,-0.2479,1.3278,-1.1766,-1826.8600,-403.6900,274.2600
3077,0.5949,0.1396,-0.3309,-1876.7700,-366.1000,197.4700
3097,1.1868,-0.5734,1.3474,-1903.5800,-283.9900,139.4400
3117,1.0331,-1.7583,3.0583,-1910.5100,-197.8200,75.5300
3137,0.7993,-2.6054,5.5373,-1870.5400,-230.8600,11.6900
3157,0.5514,-2.7806,6.7998,-1765.9600,-343.6300,-51.6600
3177,0.2216,-2.7801,8.2858,-1683.5000,-463.4000,-90.3700
3197,-0.4441,-2.8070,9.0641,-1586.4100,-560.5600,-70.7700
3217,-0.5490,-2.8558,9.3784,-1519.6300,-558.6000,-4.9700
3237,-0.6866,-3.1549,10.4666,-1432.8300,-542.2200,60.8300
3257,-0.6881,-3.1486,11.3382,-1357.6500,-557.2000,119.4200
3277,-0.3436,-3.3916,11.8823,-1279.8800,-547.2600,174.7200
3297,-0.0630,-4.3842,12.2020,-1208.2700,-595.0000,178.9200
3317,0.2089,-3.0056,11.2035,-1104.6000,-616.9100,193.6900
3337,0.9526,-2.9095,12.4196,-1018.2900,-513.4500,271.3200
3357,1.2263,-2.7977,11.5563,-995.6100,-396.5500,210.7000
3377,1.6206,-3.1652,10.9434,-946.9600,-266.4200,202.4400
3397,1.3771,-2.5176,10.2451,-1003.4500,-217.3500,130.7600
3417,1.0433,-2.1262,9.2408,-1051.8900,-179.4800,152.7400
3437,0.7876,-1.7475,7.6455,-1103.6899,-167.5800,171.9200
3457,0.2684,-0.9584,4.5452,-1173.4800,85.2600,276.8500
3477,-0.0869,-5.9526,6.8657,-1213.0300,1841.7000,52.0800
3497,2.5356,-15.9888,15.9888,203.7000,-94.1500,224.9800
3517,0.2098,2.8533,8.4014,-322.3500,-516.3200,171.9200
3537,0.5832,-2.1633,0.2367,-210.2100,25.2000,132.0200
3557,-2.0862,-3.1959,3.8820,-252.7000,493.0800,25.4800
3577,-3.3892,-1.2717,5.9321,-197.1200,201.0400,176.4000
3597,-0.4280,-4.1207,8.3214,95.2700,-119.2100,73.9200
3617,-0.1566,-2.7411,8.2955,274.7500,-104.0200,26.0400
3637,-1.2024,-1.8759,8.3243,252.0000,18.2000,68.5300
3657,-0.6100,-2.3258,8.8494,136.3600,-87.2200,47.7400
3677,-0.1649,-1.9788,7.8997,-14.4900,-42.0000,-2.0300
3697,-1.0414,-1.5962,7.0960,-94.1500,46.0600,42.0700
3717,-0.8086,-2.3170,7.5494,-96.6700,26.9500,40.3900
3737,-0.3582,-2.8558,8.0862,-41.9300,1.4000,9.1000
3757,-0.8857,-2.2189,7.4859,15.2600,21.2100,15.0500
3777,-0.9897,-2.1262,7.4025,32.6200,-7.8400,23.1000
3797,-0.7266,-2.1926,7.6431,39.0600,-47.5300,9.5200
3817,-0.7725,-2.1213,7.7607,18.9700,-40.7400,10.2900
3837,-0.8164,-2.1096,7.9163,-16.8000,-40.6700,14.4900
3857,-0.6373,-2.2648,7.8314,-40.1100,-41.5100,12.5300
3877,-0.6115,-2.3644,7.6494,-33.5300,-34.0200,12.3900
3897,-0.7115,-2.3180,7.5601,-9.8000,-28.0000,13.9300
3917,-0.7393,-2.3058,7.5679,15.7500,-27.9300,10.2200
3937,-0.7584,-2.3400,7.8148,27.5800,-31.7800,3.1500
3957,-0.8062,-2.1926,7.7465,13.4400,-48.2300,0.9100
3977,-0.6881,-2.2165,7.6870,-4.3400,-59.2200,0.2800
3997,-0.6076,-2.1618,7.6245,-17.4300,-54.8100,6.8600
4017,-0.5534,-2.2175,7.5655,-21.0000,-27.9300,16.1700
4037,-0.6110,-2.3736,7.5899,-9.3800,-14.7700,23.2400
4057,-0.7081,-2.4527,7.7167,6.8600,-14.5600,18.4100
4077,-0.7462,-2.3756,7.7084,24.6400,-25.4100,9.9400
4097,-0.7003,-2.2189,7.7231,28.4900,-24.7100,11.4100
4117,-0.6422,-2.2721,7.7831,25.6900,-20.7900,12.7400
4137,-0.6490,-2.2326,7.6523,16.9400,-19.7400,12.9500
4157,-0.6681,-2.2419,7.6514,11.7600,-22.6800,10.7800
4177,-0.6847,-2.2590,7.6767,7.7700,-20.5100,13.6500
4197,-0.6622,-2.3156,7.6611,7.5600,-20.5800,9.4500
4217,-0.6603,-2.3375,7.7436,4.4800,-20.9300,8.9600
4237,-0.6700,-2.2995,7.6011,10.7100,-21.6300,9.7300
4257,-0.6798,-2.2936,7.6953,12.1100,-19.1800,7.9800
4277,-0.6359,-2.3024,7.7041,16.1000,-22.6100,7.9800
4297,-0.6442,-2.2614,7.6343,15.3300,-20.5100,8.1200
4317,-0.6603,-2.2712,7.6865,9.5900,-20.7200,8.6800
4337,-0.6578,-2.2731,7.6309,7.9100,-21.6300,10.2900
4357,-0.6725,-2.2853,7.7153,4.5500,-22.6800,8.9600
4377,-0.6417,-2.3248,7.6348,4.7600,-24.3600,6.6500
4397,-0.6466,-2.3019,7.6474,7.6300,-20.9300,7.5600
4417,-0.6622,-2.2897,7.6884,11.2000,-16.3800,10.8500
4437,-0.6456,-2.3014,7.6689,14.2800,-18.7600,10.2900
4457,-0.6398,-2.3048,7.6714,17.0800,-16.6600,13.4400
4477,-0.6476,-2.2716,7.6245,14.7700,-18.3400,10.7100
4497,-0.6739,-2.2707,7.6840,8.8900,-17.1500,11.9000
4517,-0.6778,-2.3234,7.7226,9.5900,-21.4200,11.1300
4537,-0.6481,-2.3024,7.6455,10.1500,-22.1900,9.5200
4557,-0.6690,-2.2912,7.6445,14.2800,-18.5500,10.8500
4577,-0.6812,-2.2956,7.6826,16.5200,-22.0500,8.8200
4597,-0.6666,-2.2775,7.6743,16.1000,-21.0000,9.1700
4617,-0.6364,-2.2790,7.6523,17.4300,-20.8600,9.4500
4637,-0.6393,-2.2736,7.6699,16.1700,-18.3400,9.8700
4657,-0.6949,-2.3195,7.5416,12.2500,-21.1400,8.1200
4677,-0.6637,-2.2653,7.6811,16.3800,-18.6900,9.8000
4697,-0.6510,-2.2614,7.6660,15.8900,-20.0900,8.8900
4717,-0.6373,-2.2775,7.6509,18.2700,-18.6200,10.7100
4737,-0.6417,-2.2692,7.6474,15.2600,-18.0600,11.3400
4757,-0.6734,-2.2785,7.6821,13.0900,-20.5800,10.0800
4777,-0.6256,-2.2809,7.6514,8.7500,-20.2300,10.3600
4797,-0.6427,-2.2775,7.6387,8.0500,-20.8600,9.4500
4817,-0.6559,-2.2868,7.6811,8.8900,-16.9400,11.2700
4837,-0.6710,-2.3356,7.7041,12.8100,-20.0900,9.7300
4857,-0.6651,-2.2975,7.6592,13.3700,-23.3800,7.7000
4877,-0.6281,-2.2716,7.6582,13.3000,-23.8000,8.6100
4897,-0.6271,-2.2482,7.6367,12.6700,-19.8800,10.3600
4917,-0.6525,-2.2819,7.6831,11.7600,-21.7700,9.5900
4937,-0.6676,-2.2565,7.6596,13.3000,-18.4100,11.0600
4957,-0.6442,-2.2926,7.7241,9.5900,-21.3500,9.8000
4977,-0.6378,-2.2809,7.5913,10.6400,-22.2600,8.5400
4997,-0.6407,-2.2858,7.6572,8.2600,-20.5800,10.2900