timeline,accX,accY,accZ,gyroX,gyroY,gyroZ
16,-0.0439,-2.5156,7.3220,-21.0700,4.4800,-11.3400
36,-0.0244,-2.3590,7.7807,4.6200,-14.9100,14.7700
56,0.0034,-2.3678,7.7031,5.7400,-14.3500,11.6900
76,-0.0468,-2.3390,7.6284,7.1400,-13.6500,14.1400
96,-0.0732,-2.3717,7.6894,7.6300,-12.6700,15.5400
116,-0.0366,-2.3917,7.6416,12.6700,-11.9000,13.9300
136,-0.0630,-2.3951,7.7104,15.7500,-10.5000,13.5100
156,-0.0473,-2.3595,7.7119,9.8000,-12.6700,13.4400
176,-0.0327,-2.3546,7.6665,9.1000,-14.1400,11.7600
196,-0.0454,-2.3468,7.6411,7.0700,-13.3700,13.2300
216,-0.0786,-2.3678,7.6392,7.7000,-10.0100,13.2300
236,-0.0717,-2.3956,7.7124,9.1700,-13.5100,14.3500
256,-0.0503,-2.3839,7.6714,4.6200,-13.5100,11.2700
276,-0.0224,-2.4195,7.7387,-0.0700,-12.7400,8.6100
296,-0.0371,-2.3692,7.6455,-6.7200,-10.0100,7.6300
316,0.0010,-2.2282,7.3385,-34.6500,20.9300,13.7200
336,-0.4846,-3.7654,7.7621,-135.8000,121.0300,-50.6100
356,-0.2850,-2.7147,8.5961,-189.4900,61.3200,6.7900
376,-0.0307,-2.1238,7.7860,-325.9200,80.0800,-21.4900
396,-0.1757,-2.0642,7.7748,-436.3800,109.2700,37.0300
416,-0.0322,-2.5181,8.6308,-510.0200,151.0600,123.1300
436,-0.1537,-3.1120,8.7908,-440.1600,264.2500,225.8900
456,-1.1517,-5.4895,8.8099,-97.6500,639.3800,168.0000
476,-0.4128,-6.4548,12.3137,-52.6400,392.5600,196.2800
496,-0.7579,-4.9703,12.3376,154.8400,264.8800,93.5900
516,-0.7720,-5.4695,12.5767,285.1800,172.6900,89.3900
536,-0.1962,-6.9042,14.3853,411.5300,-50.9600,2.3100
556,-0.6525,-7.4069,14.8093,610.3300,-56.2800,-69.2300
576,-1.2986,-7.8583,15.5018,828.9400,78.7500,-92.8200
596,-1.5899,-8.4121,15.4110,1086.3300,127.4000,-28.9100
616,-1.7514,-8.7098,15.9308,1252.3700,58.1000,-31.1500
636,-2.0525,-8.6386,14.4194,1438.0800,-127.3300,-31.8500
656,-2.2009,-8.2252,12.5060,1604.1899,-70.8400,34.0200
676,-1.7885,-7.9461,11.6588,1697.0800,-54.5300,87.7800
696,-0.7867,-8.0378,10.3807,1777.0200,-23.0300,124.1100
716,0.3572,-7.7607,8.4170,1836.1700,-76.6500,88.3400
736,1.2132,-7.5362,6.9935,1932.4200,-140.2800,19.3900
756,1.8671,-6.8257,5.1923,2038.2600,-171.6400,-80.5700
776,2.1687,-5.9556,3.7600,2108.1201,-96.6000,-142.1700
796,2.1360,-4.7966,2.2048,2167.9700,-33.5300,-200.8300
816,2.2536,-4.1265,0.8735,2173.9199,79.3800,-288.6800
836,1.7656,-2.5942,-0.1884,2173.4299,150.7100,-353.5000
856,1.2995,-1.5172,-1.9349,2107.1399,233.2400,-428.6800
876,0.4407,0.4397,-2.9407,1962.1700,423.8500,-497.9800
896,-0.8594,2.2726,-3.1593,1809.2900,636.7200,-426.4400
916,-2.0882,3.3179,-2.5308,1657.8101,767.3400,-337.2600
936,-2.8914,3.8279,-2.3507,1540.2800,744.5900,-291.8300
956,-3.5390,5.1504,-2.6698,1418.8300,652.5400,-235.9700
976,-3.7654,6.0405,-3.4018,1295.3500,649.6000,-125.1600
996,-3.8401,6.2444,-3.1871,1135.8900,695.7300,-28.9800
1016,-4.1992,6.2645,-2.0857,1038.5900,593.1100,4.9000
1036,-4.4491,6.2074,-1.7832,1024.6600,340.1300,18.1300
1056,-4.1090,6.5124,-2.7060,1039.0100,92.4700,-17.1500
1076,-3.5970,7.2795,-4.3505,1004.7100,-145.1800,-93.3100
1096,-3.4858,8.1564,-5.9731,883.1900,-269.2200,-144.3400
1116,-3.6937,9.1978,-7.4069,756.0000,-361.1300,-188.7900
1136,-3.9831,10.6228,-9.2256,554.8200,-351.4000,-156.5900
1156,-4.3842,11.3699,-9.9493,235.9000,-264.1800,-75.4600
1176,-4.3866,10.9463,-9.3628,-80.9900,-167.3700,35.6300
1196,-4.1670,9.8722,-8.4282,-351.4000,-161.7700,87.6400
1216,-4.0275,9.3291,-7.6567,-592.3400,-273.1400,53.3400
1236,-3.9699,8.9987,-7.7143,-777.4200,-357.7700,43.5400
1256,-3.8074,8.7513,-7.9251,-995.3300,-288.8900,100.7300
1276,-3.4350,7.7997,-6.6690,-1175.7200,-268.0300,166.1100
1296,-2.9631,6.9257,-5.8150,-1362.9700,-309.8900,189.3500
1316,-2.1716,5.5056,-5.0976,-1512.7700,-364.2100,146.2300
1336,-1.4137,4.8756,-4.7458,-1630.8600,-340.4800,145.6000
1356,-0.7793,3.8298,-3.3609,-1706.8101,-285.7400,95.9700
1376,-1.0336,3.2184,-1.8334,-1798.0900,-345.5900,32.4100
1396,-0.9911,2.8680,-0.5417,-1888.5300,-463.3300,13.3700
1416,-0.4109,1.6592,0.5080,-1918.9100,-545.4400,12.1800
1436,0.2089,-0.0342,2.1394,-1863.8900,-577.1500,-13.6500
1456,0.5592,-0.5588,3.3448,-1782.2700,-615.0900,-31.0100
1476,0.7344,-1.1341,4.1856,-1747.9000,-573.8600,-57.2600
1496,0.5153,-1.6041,5.8599,-1652.7000,-361.7600,-7.9800
1516,0.1830,-3.0651,7.6928,-1496.0400,-279.3700,17.7800
1536,0.4465,-3.0925,9.9503,-1402.1700,-591.9200,-79.6600
1556,0.5022,-2.6547,9.6409,-1288.7700,-709.8700,-116.1300
1576,0.5168,-2.2853,9.3218,-1211.8400,-710.4300,-72.1000
1596,0.9033,-2.3741,9.1812,-1172.0100,-630.0700,14.6300
1616,1.1497,-2.9451,9.7439,-1177.8900,-580.3700,48.2300
1636,1.4860,-3.1539,9.4164,-1155.7000,-625.4500,66.3600
1656,1.9222,-3.4487,8.2184,-1186.3600,-483.7000,57.4700
1676,1.6997,-3.9533,9.3569,-1256.0800,-107.0300,153.1600
1696,1.6314,-5.2353,12.9052,-1220.1000,-35.6300,134.4700
1716,1.8344,-5.8902,9.8181,-1051.6801,-117.8800,167.6500
1736,1.5016,-4.5257,9.9332,-998.9700,-95.9000,28.0000
1756,0.6276,-4.3125,9.9752,-976.4300,70.8400,42.1400
1776,-0.2826,-3.9679,10.6345,-913.3600,120.3300,98.9800
1796,-0.5129,-3.8381,9.8532,-891.8000,156.6600,147.9100
1816,-0.4368,-3.6712,8.8523,-890.0500,139.5100,166.1100
1836,-0.5602,-2.8582,6.2098,-841.8200,165.4800,229.1100
1856,-0.4372,-3.3931,6.1464,-919.4500,187.0400,219.2400
1876,-1.0590,-9.8483,15.9888,-35.4200,-1260.3500,-277.0600
1896,-1.0965,-10.9156,15.9888,702.8700,-441.9100,338.3800
1916,2.6454,-3.1281,14.2462,103.4600,-167.7200,160.4400
1936,1.5177,-0.9531,3.2120,-379.0500,190.3300,158.7600
1956,-0.5622,-4.0724,5.4046,-521.0800,453.1100,98.8400
1976,-1.3249,-4.1958,7.6377,-325.7800,369.2500,57.5400
1996,-1.2371,-3.4248,8.1354,-252.8400,10.2900,-5.6000
2016,-0.7159,-4.5979,9.4208,-175.4200,-15.8200,92.6800
2036,-0.1918,-3.9245,8.2355,-201.8100,385.0000,165.6200
2056,-0.9077,-5.4378,11.6271,-127.0500,914.4800,322.8400
2076,-1.1834,-7.0472,15.9888,77.3500,849.1000,405.0900
2096,-1.5694,-9.6263,15.6253,262.8500,712.8800,220.2200
2116,-1.3815,-9.7053,15.9888,403.9700,427.9100,124.3900
2136,-1.0599,-9.1007,15.9888,680.4700,204.1900,27.5800
2156,-3.9020,-9.1305,14.8162,875.4900,303.6600,108.9200
2176,-1.9315,-9.1110,14.9621,1107.6801,325.7800,100.2400
2196,-1.7158,-9.6253,13.7928,1336.5100,244.2300,84.1400
2216,-1.4630,-8.7171,12.3869,1545.1801,106.0500,134.5400
2236,-1.0302,-7.4039,9.1183,1677.9000,21.3500,102.0600
2256,-0.2533,-6.5109,7.0140,1809.3600,111.9300,179.6900
2276,0.2167,-5.9102,6.2825,1879.0100,141.3300,156.5900
2296,0.8140,-5.0166,5.0493,1974.2800,167.9300,136.4300
2316,0.8628,-3.7332,3.5853,1953.5601,236.1800,126.4900
2336,1.1444,-2.9309,3.1417,1928.8500,439.1100,174.1600
2356,0.8652,-3.1071,4.2080,1856.4700,505.4000,132.5800
2376,0.5353,-2.8875,4.1553,1926.9600,494.4100,124.8100
2396,0.2196,-2.2775,3.5595,2023.4900,420.3500,101.0100
2416,0.2582,-1.6973,2.5615,2013.9000,413.5600,75.1800
2436,0.3787,-1.2141,2.0457,2032.3101,404.8800,20.0200
2456,0.5061,-0.9414,1.4420,2043.7900,361.6900,-57.1900
2476,0.3426,-0.0264,-0.0102,2023.5601,319.6900,-199.8500
2496,-0.2050,0.9267,-2.3844,1951.7400,395.6400,-264.3200
2516,-1.3566,1.0180,-1.3093,1791.5800,492.7300,-363.9300
2536,-2.4502,2.6274,-2.6991,1734.6700,606.8300,-342.7900
2556,-3.2271,3.0144,-3.1510,1620.7100,626.6400,-336.3500
2576,-3.7849,3.9352,-3.9611,1515.1500,630.7700,-284.9000
2596,-4.2002,4.5150,-4.6536,1372.1400,659.5400,-221.6900
2616,-4.0011,4.5052,-4.6770,1208.4800,616.0700,-217.3500
2636,-4.2812,4.8595,-4.8424,1132.6700,531.6500,-252.4900
2656,-5.0069,5.3582,-5.5203,1079.1200,463.4000,-273.6300
2676,-5.8443,6.1756,-6.1844,1035.2300,331.2400,-259.7700
2696,-6.6070,7.0106,-7.4113,946.1900,229.5300,-214.2000
2716,-7.1131,8.0154,-8.0315,785.2600,132.2300,-133.0000
2736,-6.9013,8.2574,-8.4761,606.9700,26.8800,-61.3200
2756,-6.4201,8.3272,-8.7957,408.4500,-74.7600,-25.3400
2776,-5.8623,8.4858,-8.8025,199.0800,-170.2400,1.4700
2796,-5.4266,8.1667,-8.6366,-16.5200,-242.6900,-13.7200
2816,-5.6003,8.5932,-8.5420,-241.2200,-288.6100,7.1400
2836,-5.1069,8.1169,-9.1027,-536.4100,-337.9600,-10.0800
2856,-4.7048,7.7055,-7.4547,-545.1600,-300.4400,77.0000
2876,-4.4686,6.9574,-6.6436,-645.4000,-291.0600,42.2100
2896,-4.9630,6.9813,-6.2015,-801.0800,-332.2900,91.9800
2916,-4.8078,6.6144,-5.4856,-894.6700,-330.7500,128.5200
2936,-4.6560,6.0517,-4.7902,-1026.1300,-461.5800,90.6500
2956,-4.1338,5.9429,-4.7878,-1135.4700,-509.3900,101.7100
2976,-3.8044,5.4602,-4.5428,-1257.2000,-522.0600,123.6200
2996,-3.3404,5.1557,-4.0406,-1368.9200,-580.5800,131.6000
3016,-2.9280,4.6428,-3.7947,-1468.3199,-643.2300,131.3900
3036,-2.2907,3.5985,-2.9807,-1550.1500,-663.6000,135.3800
3056,-1.7080,2.6186,-2.0555,-1597.3300,-699.8600,103.5300
3076,-1.1219,2.2477,-2.3605,-1687.0699,-739.6200,64.8200
3096,-0.8286,1.8095,-2.2560,-1849.3300,-740.3900,23.9400
3116,-0.5710,0.4831,-0.7300,-1957.2000,-634.9700,67.9700
3136,-0.2020,-0.7354,1.3967,-1992.3400,-639.9400,51.5200
3156,0.1059,-1.6938,3.6332,-1873.2000,-702.6600,21.5600
3176,0.2908,-2.5239,6.0556,-1721.3700,-839.2300,-45.0100
3196,0.0551,-2.8607,5.2953,-1598.3800,-951.2300,-80.8500
3216,0.2006,-2.6230,6.6539,-1488.9700,-864.5000,-4.0600
3236,0.4616,-3.6380,8.0344,-1308.0200,-796.1100,30.4500
3256,0.4148,-3.0617,7.9241,-1264.5500,-727.5100,7.2800
3276,0.2201,-3.2188,8.9426,-1288.1400,-712.9500,13.3000
3296,-0.0273,-3.3794,9.2252,-1247.4700,-750.1200,48.7900
3316,0.2747,-3.1549,8.7757,-1221.1500,-622.0200,116.1300
3336,0.2996,-3.5795,10.2426,-1218.2800,-407.6100,234.9200
3356,0.0112,-4.0260,10.1743,-1129.0300,-404.2500,260.4700
3376,0.5129,-4.0284,10.6462,-1106.8400,-324.8700,381.7800
3396,0.9667,-4.8971,11.7681,-1081.0800,-410.7600,273.0000
3416,1.0102,-4.8136,11.5529,-1006.6700,-334.4600,233.9400
3436,0.7354,-4.8619,11.4129,-953.6100,-294.9100,142.1700
3456,0.6554,-4.0133,9.9698,-966.0700,-266.4200,78.5400
3476,0.5539,-3.5551,7.4742,-1004.7100,-182.2100,59.5000
3496,0.1698,-3.5829,5.6491,-1129.6600,-12.1100,79.8700
3516,-3.6010,-9.5018,15.9888,202.7900,-1173.3400,-74.9700
3536,2.0350,-10.3300,15.9888,332.2900,-231.2100,334.2500
3556,1.9222,-1.7397,7.1268,-160.6500,-2.1700,92.4000
3576,-0.2377,-2.4771,2.8372,-404.5300,557.4100,-136.3600
3596,-2.5210,-1.8344,4.7897,-432.3200,496.8600,34.3000
3616,-1.9603,-2.2272,5.2201,-361.2700,-139.8600,92.1900
3636,-0.7935,-2.6215,6.7110,-246.1200,-699.6500,11.3400
3656,0.9906,-3.5770,6.6441,54.2500,-559.5800,26.9500
3676,0.4939,-2.7094,9.2525,205.4500,-172.5500,40.1800
3696,0.4675,-2.8636,9.5302,153.7200,-165.0600,16.2400
3716,0.2176,-2.2150,7.8100,21.7700,-71.1200,1.2600
3736,-0.6271,-2.3239,7.2531,-93.3100,-28.1400,9.7300
3756,-0.3567,-2.7333,7.4571,-136.2900,-75.1800,15.7500
3776,0.5129,-3.2823,7.6118,-119.1400,-69.3700,-0.2800
3796,0.3118,-3.0539,7.5289,-76.5100,-12.3200,3.9900
3816,-0.2133,-2.8475,7.1897,-24.1500,-21.0700,15.8900
3836,-0.1274,-2.8709,7.2946,24.0100,-62.1600,-3.7100
3856,-0.0342,-2.5805,7.3693,29.8200,-77.4200,1.1900
3876,0.0659,-2.7650,7.8373,10.2200,-58.5900,17.3600
3896,0.2596,-2.8699,7.7602,-14.4900,-38.2200,22.1900
3916,0.1357,-2.8768,7.4474,-28.2800,-18.6200,26.5300
3936,-0.0244,-2.9031,7.3088,-19.8100,-13.7900,31.4300
3956,-0.0756,-2.9197,7.3908,8.0500,-17.2900,23.5900
3976,0.0195,-2.8065,7.3844,17.7100,-23.3100,15.2600
3996,0.0146,-2.7372,7.6372,10.2900,-17.7800,18.4800
4016,0.0698,-2.7918,7.5308,1.1200,-22.8900,19.0400
4036,0.0839,-2.8319,7.4357,-1.7500,-16.8700,23.4500
4056,0.1371,-3.0178,7.4996,-1.4000,-14.3500,25.0600
4076,-0.0468,-2.8899,7.4967,1.7500,-10.5000,21.4900
4096,0.0459,-2.9500,7.5738,-1.8900,-26.0400,17.8500
4116,0.0854,-2.8865,7.4854,-0.0700,-21.9800,13.8600
4136,0.0503,-2.9178,7.4810,7.2800,-17.8500,16.4500
4156,-0.0259,-2.8494,7.4986,10.2200,-19.0400,12.5300
4176,-0.0107,-2.9016,7.5689,10.2900,-30.9400,6.0900
4196,0.0547,-2.8099,7.4313,11.6900,-27.5100,8.1200
4216,0.1015,-2.8650,7.4840,6.0900,-20.5100,12.1800
4236,-0.0117,-2.7977,7.4034,1.4700,-11.2700,34.3700
4256,-0.0117,-3.0271,7.6113,-2.0300,-11.3400,9.8700
4276,-0.0171,-2.9080,7.4615,5.6000,-19.7400,1.5400
4296,0.0634,-2.9436,7.4898,8.3300,-21.7700,3.0100
4316,0.0791,-2.8299,7.3981,13.4400,-8.8900,10.5000
4336,0.0332,-2.9461,7.5786,17.7800,-12.4600,16.9400
4356,-0.0137,-2.8860,7.5606,11.3400,-22.6100,11.9000
4376,0.0151,-2.8699,7.4835,10.5000,-24.7100,6.5800
4396,0.0576,-2.8299,7.3834,12.0400,-19.3200,9.6600
4416,0.0664,-2.9260,7.4898,10.5700,-17.7100,8.9600
4436,0.0303,-2.8597,7.4849,9.5900,-13.3700,9.8000
4456,0.0068,-2.9319,7.5503,5.0400,-16.2400,6.5100
4476,0.0361,-2.9129,7.5020,6.7200,-19.5300,6.4400
4496,0.0747,-2.9138,7.4688,5.9500,-21.5600,7.4200
4516,0.0298,-2.8929,7.4630,10.7800,-20.7200,9.0300
4536,-0.0015,-2.9934,7.5440,6.3700,-22.7500,4.9700
4556,0.0366,-2.8880,7.4259,8.2600,-23.4500,2.7300
4576,0.0464,-2.9256,7.5699,5.1100,-25.1300,5.1100
4596,0.0303,-2.8738,7.4420,15.4000,-21.2100,5.3200
4616,0.0498,-2.8831,7.4298,11.4800,-20.5100,5.7400
4636,0.0639,-2.8836,7.5035,6.1600,-18.9000,7.2100
4656,0.0620,-2.9387,7.4923,10.7800,-20.5800,10.1500
4676,0.0244,-2.9060,7.4449,7.6300,-20.6500,11.0600
4696,0.0317,-2.9373,7.5347,12.8100,-26.0400,10.9200
4716,0.0386,-2.8782,7.4659,16.9400,-23.1000,9.9400
4736,0.0400,-2.9519,7.5050,15.3300,-30.1700,7.7700
4756,0.0532,-2.8406,7.3717,13.2300,-23.7300,9.6600
4776,0.0712,-2.9143,7.5172,9.3800,-22.6100,12.1800
4796,0.0742,-2.9182,7.5206,10.4300,-25.6900,8.9600
4816,0.0532,-2.8953,7.4527,10.9900,-24.1500,10.9900
4836,0.0503,-2.8997,7.4747,12.1100,-19.3200,12.3200
4856,0.0874,-2.9304,7.4469,7.0700,-20.7200,6.4400
4876,0.0556,-2.9095,7.5245,7.0000,-18.6200,9.4500
4896,0.0654,-2.9422,7.4859,9.5900,-20.3700,8.8900
4916,0.0512,-2.9002,7.4718,9.4500,-20.6500,8.6100
4936,0.0771,-2.8938,7.4361,8.7500,-22.1200,9.3100
4956,0.0664,-2.9080,7.5191,9.4500,-19.1800,13.5100
4976,0.0678,-2.9348,7.4698,10.8500,-19.4600,12.7400
4996,0.0400,-2.8943,7.4586,11.2000,-22.2600,12.1100